ACCELEROMETER X (m/s²),ACCELEROMETER Y (m/s²),ACCELEROMETER Z (m/s²),GRAVITY X (m/s²),GRAVITY Y (m/s²),GRAVITY Z (m/s²),LINEAR ACCELERATION X (m/s²),LINEAR ACCELERATION Y (m/s²),LINEAR ACCELERATION Z (m/s²),GYROSCOPE X (rad/s),GYROSCOPE Y (rad/s),GYROSCOPE Z (rad/s),LIGHT (lux),MAGNETIC FIELD X (μT),MAGNETIC FIELD Y (μT),MAGNETIC FIELD Z (μT),ORIENTATION Z (azimuth °),ORIENTATION X (pitch °),ORIENTATION Y (roll °),PROXIMITY (i),ATMOSPHERIC PRESSURE (mb),SOUND LEVEL (dB),LOCATION Latitude : ,LOCATION Longitude : ,LOCATION Altitude ( m),LOCATION Altitude-google ( m),LOCATION Altitude-atmospheric pressure ( m),LOCATION Speed ( m/s),LOCATION Accuracy ( m),LOCATION ORIENTATION (°),Satellites in range,Time since start in ms ,YYYY-MO-DD HH-MI-SS_SSS
-0.0462,0.8581,9.9559,-0.3951,0.112,9.8014,-0.5463,-0.5682,0.6584,0.1992,-0.0418,0.049,151.1885,1.03,-16.95,-50.06,178.97,-1.79,1.46,2.0,985.64,56.996,55.75388,48.742035,598.48,NaN,,0.0,51.419495,,10 / 34,14,2020-04-13 19:15:10:080
1.6538,0.892,10.7218,-0.3778,-0.4043,9.7944,-0.85,-1.4423,-1.4514,0.4551,-0.4279,0.4198,176.3507,0.14,-12.14,-48.96,184.28,0.34,-1.07,2.0,985.66,41.18,55.75388,48.742035,598.48,NaN,,0.0,51.419495,,10 / 34,513,2020-04-13 19:15:10:579
-0.6349,1.3131,8.4317,0.0036,1.4939,9.6956,0.4715,0.2884,0.7031,0.0891,-0.3036,-0.1548,176.3507,1.87,-23.5,-47.4,179.51,-6.97,2.62,2.0,985.68,36.918,55.75388,48.742012,625.19,NaN,,0.0,48.28412,,8 / 26,1013,2020-04-13 19:15:11:079
1.473,1.1552,10.3031,0.5308,1.9418,9.6012,-0.8633,1.0445,0.6886,-0.0276,-0.0072,-0.008,114.8236,0.38,-26.9,-45.64,193.73,-11.58,-5.26,2.0,985.68,50.518,55.75388,48.742012,625.19,NaN,,0.0,48.28412,,8 / 26,1513,2020-04-13 19:15:11:579
0.0944,2.374,10.2465,-0.0141,1.5634,9.6846,0.4201,-0.4891,-1.7121,-0.478,0.3234,0.391,106.863,0.51,-27.33,-44.79,188.73,-9.16,-2.54,2.0,985.65,53.47,55.75389,48.742023,629.24,NaN,,0.0,46.27571,,8 / 26,2012,2020-04-13 19:15:12:078
0.3778,1.81,10.2464,0.4134,2.0976,9.5742,0.7818,0.6816,1.2418,-0.1774,-0.0368,0.073,61.9036,-1.07,-28.68,-46.58,181.36,-12.53,-1.74,2.0,985.65,52.697,55.75389,48.742023,629.24,NaN,,0.0,46.27571,,8 / 26,2513,2020-04-13 19:15:12:579
0.4176,1.27,10.0432,-0.4439,0.4664,9.7888,-0.6639,-0.9775,-0.0992,0.3964,0.2387,0.0501,41.5955,3.38,-19.22,-50.45,182.52,-2.73,2.6,2.0,985.67,50.918,55.753895,48.742027,631.84,NaN,,0.0,46.33565,,8 / 26,3014,2020-04-13 19:15:13:080
-0.7103,0.6997,8.4678,-0.2985,0.6229,9.7857,0.2164,-0.2133,1.5076,0.2084,-0.15,0.1173,20.9307,0.17,-18.96,-50.8,174.35,-3.64,1.75,2.0,985.68,49.596,55.753895,48.742027,631.84,NaN,,0.0,46.33565,,8 / 26,3513,2020-04-13 19:15:13:579
0.8386,0.9621,8.8218,0.0761,0.1135,9.809,-0.8145,-0.9053,0.9302,0.2065,0.0431,-0.0746,18.8482,-0.43,-15.73,-52.08,180.03,-0.99,-0.01,2.0,985.68,55.089,55.753902,48.74203,638.09,NaN,,0.0,47.93915,,8 / 26,4013,2020-04-13 19:15:14:079
-0.4324,0.7223,8.5971,-0.6359,0.726,9.7624,0.0122,0.3864,-0.0434,0.0928,-0.0731,0.1523,17.1213,4.18,-18.49,-52.36,182.48,-4.24,3.73,2.0,985.68,42.673,55.753902,48.74203,638.09,NaN,,0.0,47.93915,,8 / 26,4513,2020-04-13 19:15:14:579
0.2179,0.2865,12.28,-0.0509,0.8801,9.7703,-0.6386,0.5297,-0.5559,0.0556,0.0557,-0.0265,19.6686,1.37,-19.86,-51.22,182.74,-5.15,0.3,2.0,985.66,58.176,55.753902,48.74203,638.09,NaN,,0.0,47.93915,,8 / 26,5013,2020-04-13 19:15:15:079
-1.1873,0.4582,12.028,-0.7801,0.9073,9.7368,0.4354,0.6735,-2.7759,-0.5563,0.0697,-0.0121,59.7581,4.84,-21.33,-50.53,187.21,-7.36,3.58,2.0,985.67,53.266,55.753902,48.74203,638.09,NaN,,0.0,47.93915,,8 / 26,5513,2020-04-13 19:15:15:579
0.6306,0.1493,10.5888,-0.1095,0.1059,9.8088,-0.6662,0.6155,-2.4554,-0.5556,-0.2134,-0.1327,139.9527,2.03,-17.13,-53.17,180.63,-4.74,0.93,2.0,985.66,52.866,55.753902,48.74203,638.09,NaN,,0.0,47.93915,,7 / 26,6013,2020-04-13 19:15:16:079
-0.7232,0.8127,11.1386,-0.4953,0.8974,9.7563,0.0453,-0.6117,0.2529,-0.3259,0.2198,0.3498,434.439,2.83,-20.99,-50.74,181.45,-5.25,2.91,2.0,985.66,39.326,55.753902,48.74203,638.09,NaN,,0.0,47.93915,,7 / 26,6513,2020-04-13 19:15:16:579
-0.4154,0.5446,8.9994,-0.4161,0.71,9.7754,0.2362,0.1003,-0.0793,0.0495,-0.0263,-0.0849,612.6799,0.7,-20.07,-50.38,176.05,-4.15,2.44,2.0,985.63,40.454,55.753902,48.74203,638.09,NaN,,0.0,47.93915,,7 / 26,7014,2020-04-13 19:15:17:080
0.4995,0.9443,9.1492,-0.2351,0.8804,9.7676,-0.8217,-0.2762,0.6847,0.1087,-0.0104,-0.1194,415.1162,0.63,-18.38,-49.38,180.0,-3.38,1.17,2.0,985.65,27.301,55.753902,48.74203,638.09,NaN,,0.0,47.93915,,7 / 26,7512,2020-04-13 19:15:17:578
-0.711,0.3631,8.1189,-0.482,0.6355,9.7775,0.0214,0.1285,0.8118,-0.0772,0.0572,0.1354,177.3141,0.82,-18.13,-48.58,175.3,-3.67,2.6,2.0,985.64,38.395,55.753902,48.74203,638.09,NaN,,0.0,47.93915,,5 / 26,8012,2020-04-13 19:15:18:078
-0.0924,0.0058,9.7698,-0.316,0.572,9.7882,-0.3247,0.9307,-0.0377,0.002,-0.0976,-0.161,130.3242,3.26,-17.66,-48.42,185.46,-3.34,1.85,2.0,985.65,46.41,55.753902,48.74203,638.09,NaN,,0.0,47.93915,,5 / 26,8513,2020-04-13 19:15:18:579
-1.143,0.4116,9.9916,-0.6517,0.8209,9.7538,0.5693,0.0554,0.2419,-0.002,-0.182,0.0052,65.9009,4.5,-18.08,-46.29,183.34,-5.19,3.97,2.0,985.65,58.935,55.753902,48.74203,638.09,NaN,,0.0,47.93915,,5 / 26,9014,2020-04-13 19:15:19:080
-0.357,0.3326,10.924,-0.5275,0.6073,9.777,0.1777,0.508,-1.4143,-0.1573,-0.0263,-0.0167,75.2133,5.62,-18.63,-45.5,196.61,-6.03,2.25,2.0,985.64,60.016,55.753902,48.74203,638.09,NaN,,0.0,47.93915,,5 / 26,9513,2020-04-13 19:15:19:579
-0.2841,0.5051,10.9838,-0.7926,0.5217,9.764,-0.1281,0.4409,-1.6604,0.1212,0.1156,0.1578,67.7571,10.66,-16.24,-44.86,212.49,-2.97,2.94,2.0,985.65,53.173,55.753902,48.74203,638.09,NaN,,0.0,47.93915,,3 / 26,10013,2020-04-13 19:15:20:079
-0.4545,0.9699,10.3971,-0.4783,0.517,9.7847,0.4348,-0.2262,-0.8795,0.2109,-0.0732,0.0354,47.3889,7.31,-19.11,-44.6,196.12,-3.02,2.8,2.0,985.65,50.643,55.753902,48.74203,638.09,NaN,,0.0,47.93915,,3 / 26,10513,2020-04-13 19:15:20:579
0.5327,1.1139,8.0839,-0.2467,0.4429,9.7969,-0.676,-0.6687,0.8442,0.0218,0.0268,-0.0574,47.4292,6.11,-18.11,-45.41,195.62,-1.98,1.79,2.0,985.67,52.692,55.753906,48.74203,640.62,NaN,,0.0,94.094376,,3 / 26,11013,2020-04-13 19:15:21:079
-0.5791,0.4898,8.2409,-0.2283,0.469,9.7961,0.3941,-0.122,1.5668,0.0556,-0.0935,-0.1152,57.6878,3.79,-18.73,-45.99,188.53,-2.57,1.82,2.0,985.68,58.938,55.753906,48.74203,640.62,NaN,,0.0,94.094376,,3 / 26,11513,2020-04-13 19:15:21:579
-0.5183,0.7014,8.5717,-0.1848,0.52,9.7945,0.1059,-0.6389,2.2357,0.1897,5.0E-4,0.0474,69.7031,3.19,-16.53,-47.7,189.93,-2.16,0.41,2.0,985.67,54.388,55.75392,48.74203,645.83,NaN,,0.0,92.66877,,5 / 26,12013,2020-04-13 19:15:22:079
-0.4719,0.0887,9.8243,-0.4617,0.4205,9.7901,0.6613,0.1816,0.0148,-0.1742,-0.0851,0.3469,131.5605,2.52,-15.89,-46.67,185.11,-4.0,2.27,2.0,985.67,54.854,55.75392,48.74203,645.83,NaN,,0.0,92.66877,,5 / 26,12514,2020-04-13 19:15:22:580
0.0446,-0.3583,10.7917,-0.1123,0.4112,9.8007,0.0526,1.0471,-2.7408,-0.2426,0.0331,-0.2196,200.2063,0.28,-15.96,-47.08,175.35,-4.29,1.23,2.0,985.67,58.024,55.75392,48.74203,645.83,NaN,,0.0,92.66877,,5 / 26,13013,2020-04-13 19:15:23:079
-1.2575,0.4397,10.9318,-0.6626,0.3109,9.7827,-0.1818,-0.0538,-1.3231,-0.0742,0.3423,0.1523,450.3881,1.36,-16.32,-49.08,177.79,-2.01,1.81,2.0,985.68,55.793,55.75392,48.74203,645.83,NaN,,0.0,92.66877,,5 / 26,13513,2020-04-13 19:15:23:579
-0.5616,0.1877,9.6078,-0.067,0.2785,9.8058,0.1826,-0.0169,-1.3984,-0.0113,-0.0243,-0.0571,571.8258,-0.61,-15.52,-47.83,168.95,-1.42,2.26,2.0,985.66,56.182,55.75392,48.74203,645.83,NaN,,0.0,92.66877,,5 / 26,14013,2020-04-13 19:15:24:079
-0.0806,1.1327,9.0713,-0.234,0.135,9.8063,-0.8434,-0.751,1.6402,0.169,0.0829,0.1,502.2801,1.52,-15.0,-48.47,183.41,-0.79,1.37,2.0,985.66,54.853,55.75392,48.74203,645.83,NaN,,0.0,92.66877,,5 / 26,14513,2020-04-13 19:15:24:579
-0.638,0.6266,8.1,-0.5287,0.3192,9.7905,0.4844,-0.0892,1.5791,0.0605,-0.0121,-0.0019,267.6717,1.77,-14.46,-49.89,176.76,-1.86,3.09,2.0,985.68,53.107,55.75392,48.74203,645.83,NaN,,0.0,92.66877,,6 / 26,15013,2020-04-13 19:15:25:079
0.4969,-0.5339,9.2843,0.1999,0.2533,9.8047,0.006,0.2989,1.3718,0.0874,-0.107,0.0506,114.4056,-1.34,-14.66,-48.94,180.0,-1.48,-1.17,2.0,985.66,55.004,55.75392,48.74203,645.83,NaN,,0.0,92.66877,,6 / 26,15512,2020-04-13 19:15:25:578
-0.7733,0.0176,11.3043,-0.1962,0.1727,9.8065,0.1863,0.7321,-0.7701,-0.0683,-0.2656,0.1071,78.9782,1.36,-16.02,-48.65,180.99,-2.24,0.88,2.0,985.68,55.819,55.75392,48.74203,645.83,NaN,,0.0,92.66877,,7 / 26,16013,2020-04-13 19:15:26:079
0.7616,-0.1327,11.8953,0.1578,0.1524,9.8075,-0.066,-0.0959,-1.483,-0.1755,0.0247,-0.2759,63.3608,-2.01,-15.2,-50.4,175.2,-0.89,-0.92,2.0,985.68,54.517,55.75392,48.74203,645.83,NaN,,0.0,92.66877,,7 / 26,16514,2020-04-13 19:15:26:580
-0.3008,0.9949,10.5766,-0.4763,1.0077,9.7465,-0.4626,-0.1337,-0.7306,-0.2611,0.131,0.0394,48.5308,2.73,-20.35,-49.57,182.16,-5.9,2.8,2.0,985.66,53.256,55.753895,48.74203,635.37,NaN,,0.0,115.803825,,7 / 26,17012,2020-04-13 19:15:27:078
-0.2665,0.8525,11.4224,0.1817,0.9484,9.7624,0.3633,5.0E-4,-1.1381,0.0784,-0.3098,0.0149,35.701,0.22,-20.95,-51.44,178.56,-5.55,0.45,2.0,985.67,52.909,55.753895,48.74203,635.37,NaN,,0.0,115.803825,,7 / 26,17512,2020-04-13 19:15:27:578
0.6409,1.1843,8.8022,-0.2682,0.7449,9.778,-0.4101,-0.6079,-0.2232,0.0706,0.104,-0.1467,17.7517,1.63,-17.39,-52.77,185.75,-2.68,0.58,2.0,985.67,49.279,55.753895,48.74203,635.37,NaN,,0.0,115.803825,,5 / 26,18013,2020-04-13 19:15:28:079
-0.6086,0.3408,8.1899,-0.3536,0.3248,9.7982,0.6852,0.2878,1.5707,-0.0613,-0.2086,0.1725,15.6289,2.45,-15.6,-50.73,180.64,-1.9,2.07,2.0,985.66,51.467,55.753895,48.74203,635.37,NaN,,0.0,115.803825,,5 / 26,18514,2020-04-13 19:15:28:580
0.2086,0.3479,8.0663,0.1859,-0.022,9.8082,-0.193,0.4332,0.7789,0.0652,0.0644,-0.0581,15.6289,0.17,-15.13,-53.07,181.08,-0.19,-0.3,2.0,985.66,53.382,55.753914,48.74203,640.91,NaN,,0.0,121.343895,,5 / 26,19012,2020-04-13 19:15:29:078
-0.6321,-0.4126,9.0723,-0.399,0.3241,9.7965,0.3704,1.0953,0.2535,-0.0457,-0.0791,0.0688,19.0591,3.44,-16.68,-52.42,180.97,-1.17,3.01,2.0,985.65,46.757,55.753914,48.74203,640.91,NaN,,0.0,121.343895,,5 / 26,19513,2020-04-13 19:15:29:579
-0.1894,-1.4037,13.1403,0.3399,0.158,9.8028,-0.3312,1.1131,-1.0234,-0.6495,-0.0836,-0.16,39.7461,-1.33,-14.82,-51.73,180.91,-0.88,-1.35,2.0,985.67,52.664,55.753914,48.74203,640.91,NaN,,0.0,121.343895,,5 / 26,20013,2020-04-13 19:15:30:079
0.3252,1.1053,11.4115,-0.5337,0.701,9.7704,1.043,0.5379,-2.254,0.1586,0.2324,-0.0233,55.7649,2.34,-17.39,-52.24,180.68,-4.15,2.03,2.0,985.68,48.904,55.753914,48.74203,640.91,NaN,,0.0,121.343895,,5 / 26,20513,2020-04-13 19:15:30:579
0.0227,0.9191,10.3667,0.2014,0.8785,9.7685,-0.0085,-0.2657,0.5261,0.0542,-0.1486,-0.0575,120.0082,0.07,-19.15,-53.03,180.6,-3.69,-0.18,2.0,985.64,49.94,55.753902,48.74203,637.37,NaN,,0.0,122.51566,,4 / 26,21013,2020-04-13 19:15:31:079
-0.4226,1.3761,9.4436,-0.1746,0.5413,9.7935,-0.0322,-0.6083,0.1677,0.1396,0.2619,0.0647,109.471,-0.02,-17.36,-54.25,182.46,-2.39,-0.67,2.0,985.66,48.909,55.753902,48.74203,637.37,NaN,,0.0,122.51566,,4 / 26,21513,2020-04-13 19:15:31:579
-0.4956,0.5981,7.7862,-0.0509,0.3996,9.8017,0.6266,-0.5063,1.4942,0.0789,-0.0939,0.0077,86.8525,-0.66,-16.84,-54.71,172.55,-1.19,1.12,2.0,985.65,47.868,55.753902,48.74203,637.37,NaN,,0.0,122.51566,,4 / 26,22013,2020-04-13 19:15:32:079
0.7151,0.8978,7.8113,0.2482,0.5725,9.7901,-0.5912,0.429,1.4229,0.0531,0.2579,-0.3806,107.7042,-0.1,-18.45,-53.19,185.16,-3.35,-1.45,2.0,985.67,50.672,55.753902,48.74203,637.37,NaN,,0.0,122.51566,,4 / 26,22512,2020-04-13 19:15:32:578
-0.293,-0.0072,9.0445,-0.4495,0.4275,9.7904,0.0202,0.8772,-0.1418,-0.0497,-0.0851,0.0659,156.8005,2.5,-18.15,-52.9,175.2,-2.05,3.62,2.0,985.64,47.125,55.753902,48.74203,637.37,NaN,,0.0,122.51566,,3 / 26,23013,2020-04-13 19:15:33:079
1.1109,-0.3301,9.1066,0.1971,0.5198,9.7942,-0.8944,0.8993,0.1176,0.1948,-0.245,-0.165,187.5657,-1.83,-15.64,-51.65,171.64,-2.73,-0.02,2.0,985.68,54.719,55.753902,48.74203,637.37,NaN,,0.0,122.51566,,3 / 26,23513,2020-04-13 19:15:33:579
-0.5848,1.4236,10.786,-0.6188,1.2453,9.7109,1.1276,0.6875,-1.8826,-0.0019,0.0261,0.3381,187.5657,3.67,-20.01,-51.24,183.9,-7.33,3.47,2.0,985.64,51.453,55.753902,48.74203,637.37,NaN,,0.0,122.51566,,4 / 25,24012,2020-04-13 19:15:34:078
0.4498,0.7058,10.1966,0.1246,1.3962,9.7093,0.2978,0.1274,0.1716,-0.4801,-0.2317,-0.2041,108.0348,0.26,-21.59,-49.28,174.71,-7.85,1.63,2.0,985.66,48.567,55.753902,48.74203,637.37,NaN,,0.0,122.51566,,4 / 25,24514,2020-04-13 19:15:34:580
-0.3592,1.2989,10.0763,-0.2327,0.663,9.7848,0.1615,-0.4684,-0.1874,0.1167,0.288,0.1919,118.726,-0.56,-17.2,-49.07,177.95,-2.68,-0.55,2.0,985.66,51.034,55.753883,48.74202,632.86,NaN,,0.0,123.70917,,0 / 26,25013,2020-04-13 19:15:35:079
0.5123,1.2403,8.8479,0.3229,1.0854,9.7444,-0.0987,0.1381,2.1336,0.1817,-0.3505,0.2486,118.726,-3.87,-18.89,-47.78,169.93,-6.35,-1.9,2.0,985.68,52.673,55.753883,48.74202,632.86,NaN,,0.0,123.70917,,0 / 26,25513,2020-04-13 19:15:35:579
0.448,0.2105,8.6082,0.2555,0.782,9.7754,-0.6243,-0.067,2.0771,0.1315,-0.0115,-0.3043,90.646,-5.96,-16.84,-46.3,165.31,-2.46,-2.57,2.0,985.69,48.472,55.753883,48.74202,632.86,NaN,,0.0,123.70917,,4 / 25,26013,2020-04-13 19:15:36:079
-0.0659,0.397,8.3617,-0.0974,0.4512,9.7991,0.0134,0.2749,-0.7838,0.1182,-0.214,0.0912,12.2169,-0.67,-18.12,-48.34,174.65,-2.64,0.57,2.0,985.67,44.626,55.753883,48.74202,632.86,NaN,,0.0,123.70917,,4 / 25,26513,2020-04-13 19:15:36:579
1.3404,0.3154,11.792,0.1865,1.2801,9.7243,-1.094,0.8456,-1.5214,0.0942,0.0994,-0.2891,9.6474,-1.91,-22.56,-45.74,176.19,-7.5,-1.1,2.0,985.68,45.957,55.753883,48.74202,632.86,NaN,,0.0,123.70917,,3 / 26,27013,2020-04-13 19:15:37:079
-1.2581,1.1264,11.9243,-0.2335,1.3934,9.7077,0.8478,0.4969,-2.1775,-0.4494,-0.2023,0.2474,9.6474,1.91,-23.28,-46.29,183.15,-8.17,1.38,2.0,985.69,45.528,55.753883,48.74202,632.86,NaN,,0.0,123.70917,,3 / 26,27512,2020-04-13 19:15:37:578
0.6593,-0.2132,12.166,0.3238,0.2957,9.8002,-0.3791,1.0329,-2.4578,-0.2955,-0.1738,0.0093,9.6474,0.28,-21.0,-49.77,181.23,-4.58,-0.42,2.0,985.69,36.853,55.753883,48.74202,632.86,NaN,,0.0,123.70917,,0 / 26,28014,2020-04-13 19:15:38:080
0.4347,0.6913,11.4248,0.1201,0.6186,9.7897,-0.0245,-0.4543,-0.3489,0.0262,0.2162,-0.0082,9.6474,0.29,-21.17,-50.24,181.97,-3.62,-0.7,2.0,985.68,55.298,55.753883,48.74202,632.86,NaN,,0.0,123.70917,,0 / 26,28514,2020-04-13 19:15:38:580
-0.4792,0.3638,10.4548,-0.0877,0.3974,9.8016,0.1708,-0.0524,-1.1682,0.1077,-0.0527,-0.0984,12.308,0.77,-19.53,-50.44,181.76,-2.32,0.51,2.0,985.67,45.64,55.753883,48.74202,632.86,NaN,,0.0,123.70917,,0 / 25,29013,2020-04-13 19:15:39:079
-6.0E-4,0.5074,10.0065,-0.5338,0.3209,9.7902,-0.3929,-0.2666,-0.6501,0.295,0.0302,0.2529,16.2489,2.22,-19.49,-51.44,183.04,-0.34,1.13,2.0,985.66,52.913,55.753883,48.74202,632.86,NaN,,0.0,123.70917,,0 / 25,29514,2020-04-13 19:15:39:580
-0.3115,0.3758,9.0161,-0.1896,0.1252,9.8074,-0.327,-0.2666,-0.7855,0.2989,-0.0561,-0.1983,42.0783,1.96,-18.28,-52.74,180.35,-0.95,2.05,2.0,985.68,59.032,55.753883,48.74202,632.86,NaN,,0.0,123.70917,,0 / 26,30012,2020-04-13 19:15:40:078
-0.3437,0.7099,8.5909,-0.2945,0.2401,9.8026,0.1208,-0.4395,2.1125,-0.3672,0.1133,-0.0494,60.7686,1.47,-18.15,-50.88,178.18,-1.4,1.72,2.0,985.68,56.387,55.753883,48.74202,632.86,NaN,,0.0,123.70917,,0 / 26,30513,2020-04-13 19:15:40:579
-1.2191,1.118,8.4225,0.4952,0.1405,9.7965,1.2038,-0.5284,1.4253,-0.8391,-0.3125,0.6621,84.2231,-1.85,-20.6,-48.3,174.49,-4.95,-0.45,2.0,985.68,53.807,55.753883,48.74202,632.86,NaN,,0.0,123.70917,,0 / 26,31013,2020-04-13 19:15:41:079
0.7867,-0.7364,9.1327,0.7268,0.1218,9.7823,-0.3293,1.0944,0.1074,-0.2026,-0.0885,0.2442,177.9107,-5.82,-16.59,-48.43,169.71,-2.0,-3.83,2.0,985.67,52.145,55.753883,48.74202,632.86,NaN,,0.0,123.70917,,0 / 26,31513,2020-04-13 19:15:41:579
0.6111,-0.7676,11.4059,0.3999,0.6274,9.7817,1.2471,0.882,-0.094,0.4722,0.6243,1.0462,177.9107,-11.89,-14.06,-45.61,149.31,-0.97,-5.13,2.0,985.67,54.145,55.753883,48.74202,632.86,NaN,,0.0,123.70917,,0 / 26,32014,2020-04-13 19:15:42:080
-0.7229,-1.0546,9.2602,-0.0021,-0.1117,9.8094,0.3481,1.5801,-0.0114,0.0796,-0.1872,-0.3302,105.8354,-12.91,-9.06,-44.03,126.14,0.65,0.01,2.0,985.68,56.519,55.753883,48.74202,632.86,NaN,,0.0,123.70917,,0 / 26,32513,2020-04-13 19:15:42:579
1.7692,0.0096,9.0748,1.0028,-0.6216,9.7388,-1.0085,-0.7272,1.1103,-0.2906,0.4457,-1.1312,164.9601,-19.9,-12.73,-35.02,133.55,2.33,-7.51,2.0,985.67,54.683,55.753883,48.74202,632.86,NaN,,0.0,123.70917,,0 / 25,33014,2020-04-13 19:15:43:080
1.176,0.3386,9.0771,1.0156,-0.319,9.7521,-0.2993,-0.904,0.7975,-0.1121,0.0234,-0.8691,133.8471,-11.48,-4.28,-35.29,126.34,2.05,-6.16,2.0,985.62,54.912,55.753883,48.74202,632.86,NaN,,0.0,123.70917,,0 / 25,33513,2020-04-13 19:15:43:579
-0.2825,-0.2649,9.4509,0.4942,-0.1462,9.7965,0.852,-0.354,0.9207,0.1036,-0.0505,0.1655,40.4879,1.67,-11.54,-40.34,197.04,1.88,-2.98,2.0,985.66,47.85,55.753883,48.74202,632.86,NaN,,0.0,123.70917,,0 / 26,34013,2020-04-13 19:15:44:079
1.3508,-1.1362,11.8837,1.2635,-0.2901,9.724,-0.1619,0.9391,-0.767,0.378,-0.074,-0.8566,27.4952,0.82,-18.28,-43.16,198.74,1.69,-7.4,2.0,985.68,52.522,55.753883,48.74202,632.86,NaN,,0.0,123.70917,,0 / 26,34512,2020-04-13 19:15:44:578
0.8741,1.1468,8.4893,0.6483,0.9144,9.7458,0.4969,-0.2802,0.2246,-0.261,0.2786,0.4626,11.0084,3.57,-21.25,-46.32,205.67,-5.3,-5.05,2.0,985.66,54.879,55.753883,48.74202,632.86,NaN,,0.0,123.70917,,0 / 25,35014,2020-04-13 19:15:45:080
0.5124,0.934,9.1199,0.7951,0.7243,9.7509,0.4039,-0.3607,0.315,0.0117,-0.1137,0.585,9.9821,-3.18,-18.6,-45.91,182.76,-4.23,-4.66,2.0,985.66,56.253,55.753883,48.74202,632.86,NaN,,0.0,123.70917,,0 / 25,35513,2020-04-13 19:15:45:579
0.9957,1.0406,8.5678,0.7013,0.9881,9.7349,-0.0934,-0.4029,1.9455,-0.0617,0.457,0.9188,9.9821,-8.82,-18.24,-47.86,157.0,-5.78,-4.12,2.0,985.65,58.673,55.753883,48.74202,632.86,NaN,,0.0,123.70917,,0 / 26,36013,2020-04-13 19:15:46:079
-1.3605,-0.2525,9.9731,-0.075,0.6635,9.7872,1.1544,1.1368,-0.4527,0.2132,-0.417,0.1611,16.8521,-6.01,-13.22,-49.16,143.53,-2.44,2.43,2.0,985.66,51.433,55.753883,48.74202,632.86,NaN,,0.0,123.70917,,0 / 26,36515,2020-04-13 19:15:46:581
1.08,0.1619,10.307,1.4404,0.7772,9.6725,0.5965,1.1985,0.596,-0.1138,-0.1989,0.6272,15.0865,-15.34,-14.34,-46.07,133.33,-5.98,-6.72,2.0,985.66,50.658,55.753883,48.74202,632.86,NaN,,0.0,123.70917,,0 / 26,37013,2020-04-13 19:15:47:079
2.4192,0.0411,9.7928,0.3817,0.3706,9.7956,-1.7929,-0.0117,0.18,0.1143,0.1191,0.545,19.7972,-14.31,-6.92,-49.4,112.99,-2.16,-2.23,2.0,985.65,49.88,55.753883,48.74202,632.86,NaN,,0.0,123.70917,,0 / 26,37513,2020-04-13 19:15:47:579
1.1936,1.6589,7.269,0.1104,0.7864,9.7778,-0.9421,-0.3977,0.8098,0.1538,-0.0898,-1.0978,62.4294,-13.18,-7.25,-47.96,111.38,-2.73,-1.21,2.0,985.65,49.166,55.753883,48.74202,632.86,NaN,,0.0,123.70917,,0 / 26,38013,2020-04-13 19:15:48:079
1.5682,-0.6997,10.5592,0.8459,0.4073,9.765,-0.2972,0.7068,0.6339,-0.2649,-0.458,-0.9185,202.2394,-7.26,-16.93,-49.36,160.75,-3.34,-2.42,2.0,985.68,55.893,55.753883,48.74202,632.86,NaN,,0.0,123.70917,,0 / 26,38514,2020-04-13 19:15:48:580
-0.6179,0.3676,8.7121,-0.022,0.3165,9.8049,0.0431,1.125,-3.7044,-0.3746,0.2047,0.0933,325.6344,0.97,-18.25,-50.82,183.1,-1.85,0.13,2.0,985.67,53.199,55.753883,48.74202,632.86,NaN,,0.0,123.70917,,0 / 26,39013,2020-04-13 19:15:49:079
1.0264,1.1325,12.6624,0.5656,1.1985,9.7201,-0.5136,-0.02,-3.2688,-0.095,-0.0342,0.0245,503.3958,-3.61,-21.94,-49.01,177.7,-7.85,-1.66,2.0,985.65,54.722,55.753883,48.74202,632.86,NaN,,0.0,123.70917,,0 / 26,39512,2020-04-13 19:15:49:578
0.0788,0.9463,10.278,0.3741,0.9187,9.7597,-0.3736,-0.4432,0.3994,-0.2027,0.2559,0.1125,339.7208,-1.75,-18.33,-49.48,186.33,-4.86,-4.12,2.0,985.66,52.879,55.753883,48.74202,632.86,NaN,,0.0,123.70917,,0 / 26,40013,2020-04-13 19:15:50:079
0.5978,1.74,10.0698,0.4502,0.6854,9.7757,-0.0275,-0.6768,0.9028,-0.0719,-0.2691,0.1046,207.2638,-2.56,-17.06,-48.81,176.86,-4.01,-2.64,2.0,985.65,49.219,55.753883,48.74202,632.86,NaN,,0.0,123.70917,,0 / 26,40513,2020-04-13 19:15:50:579
0.4931,1.9355,7.714,0.3893,1.0793,9.7427,-0.3731,-0.6745,0.4675,0.1846,0.2225,-0.531,121.6917,0.95,-18.63,-49.69,198.51,-5.87,-4.16,2.0,985.66,57.012,55.753883,48.74202,632.86,NaN,,0.0,123.70917,,0 / 26,41013,2020-04-13 19:15:51:079
-0.002,1.1753,9.2846,-1.1029,0.8419,9.7114,-1.0384,-0.3669,0.668,-0.4852,0.3438,0.0253,145.7553,5.1,-19.09,-47.59,197.37,-5.83,0.73,2.0,985.65,54.361,55.753883,48.74202,632.86,NaN,,0.0,123.70917,,0 / 26,41513,2020-04-13 19:15:51:579
0.9691,-0.1729,10.1126,0.3141,0.4901,9.7927,-0.256,0.5961,-0.4618,-0.0598,-0.0808,-0.2914,345.8103,4.36,-16.89,-49.7,198.51,-1.77,-1.35,2.0,985.67,47.445,55.753883,48.74202,632.86,NaN,,0.0,123.70917,,0 / 26,42013,2020-04-13 19:15:52:079
0.1479,0.0419,9.2612,-0.663,0.8353,9.7519,-0.8109,0.7934,0.4907,-0.5936,0.3867,0.7729,322.6652,8.31,-17.39,-50.82,200.23,-5.55,4.42,2.0,985.66,53.241,55.753883,48.74202,632.86,NaN,,0.0,123.70917,,0 / 26,42513,2020-04-13 19:15:52:579
1.0569,-0.0444,9.5073,0.0805,0.8688,9.7711,-0.3561,0.7124,-1.8792,-0.0668,-0.1476,-0.2731,236.9884,3.37,-20.26,-49.68,190.38,-5.64,0.29,2.0,985.67,53.744,55.753883,48.74202,632.86,NaN,,0.0,123.70917,,0 / 26,43012,2020-04-13 19:15:53:078
-0.1747,0.2094,11.7732,-0.406,1.181,9.7302,-0.0342,0.7755,-2.2086,-0.0358,0.177,0.3913,80.8546,7.14,-20.04,-48.35,201.45,-6.38,1.54,2.0,985.68,55.72,55.753883,48.74202,632.86,NaN,,0.0,123.70917,,0 / 26,43513,2020-04-13 19:15:53:579
0.2722,1.792,11.3095,0.3239,1.1888,9.7323,0.0869,-0.2281,-3.3399,-0.203,-0.2988,0.3025,56.0786,1.97,-21.46,-48.37,186.9,-8.37,0.4,2.0,985.67,56.512,55.753872,48.742012,628.38,NaN,,0.0,151.33017,,0 / 26,44013,2020-04-13 19:15:54:079
0.0615,1.6481,8.1069,-0.0039,1.2397,9.7314,0.0808,-0.3888,1.2186,0.2155,0.2887,-0.2231,61.4343,4.44,-21.51,-48.05,194.18,-7.26,0.02,2.0,985.68,48.449,55.753872,48.742012,628.38,NaN,,0.0,151.33017,,0 / 26,44513,2020-04-13 19:15:54:579
0.4417,1.4424,8.0171,0.0935,0.752,9.7807,-0.2129,-0.7958,1.7922,-0.0906,-0.2352,0.2357,73.6764,2.89,-17.39,-48.33,186.09,-3.51,1.79,2.0,985.67,52.833,55.753872,48.742012,628.38,NaN,,0.0,151.33017,,4 / 26,45013,2020-04-13 19:15:55:079
0.4517,1.1075,6.7918,0.1717,0.7262,9.7816,-0.4461,0.6759,1.5252,0.0457,0.1315,-0.1771,127.403,-0.35,-17.59,-48.83,186.78,-4.22,-1.99,2.0,985.67,50.4,55.753872,48.742012,628.38,NaN,,0.0,151.33017,,4 / 26,45515,2020-04-13 19:15:55:581
-0.4662,0.3185,6.7872,-0.1564,0.5263,9.7946,0.7607,1.1717,1.1273,-0.0085,-0.1265,0.1934,183.5512,2.91,-18.05,-49.63,188.19,-3.08,0.91,2.0,985.68,34.789,55.753872,48.742012,628.38,NaN,,0.0,151.33017,,3 / 26,46012,2020-04-13 19:15:56:078
0.8421,0.1126,8.41,0.4008,0.6693,9.7789,-0.2248,0.4508,0.2085,0.2146,0.089,-0.3991,115.5523,-0.18,-17.77,-50.36,188.27,-3.22,-2.53,2.0,985.66,39.012,55.753872,48.742012,628.38,NaN,,0.0,151.33017,,3 / 26,46513,2020-04-13 19:15:56:579
-0.8784,0.3036,8.4906,-0.1144,0.749,9.7807,-0.1945,1.1111,0.0072,0.4123,0.0723,0.0329,100.3089,2.7,-17.82,-51.66,190.23,-4.72,0.59,2.0,985.66,55.74,55.753872,48.742012,628.38,NaN,,0.0,151.33017,,0 / 26,47013,2020-04-13 19:15:57:079
0.4144,0.1652,8.3911,0.4688,0.8105,9.7652,-0.3398,0.9991,0.8442,0.1312,-0.1256,-0.1674,134.9783,-0.04,-18.63,-49.89,188.85,-4.14,-2.74,2.0,985.68,53.012,55.753872,48.742012,628.38,NaN,,0.0,151.33017,,0 / 26,47514,2020-04-13 19:15:57:580
-0.023,-0.6572,10.2693,-0.3882,0.2885,9.7981,-1.0286,1.9305,-2.6049,-0.2926,-0.0217,0.3405,134.9783,2.53,-16.37,-51.4,183.86,-1.69,2.27,2.0,985.69,53.095,55.753872,48.742012,628.38,NaN,,0.0,151.33017,,0 / 26,48013,2020-04-13 19:15:58:079
-1.0806,1.432,13.5289,-0.0078,0.7861,9.7785,-0.1242,0.4728,-3.1638,-0.3879,-0.4239,0.0493,96.1371,1.17,-19.24,-50.18,179.78,-6.92,1.2,2.0,985.67,54.88,55.753872,48.742012,628.38,NaN,,0.0,151.33017,,0 / 26,48513,2020-04-13 19:15:58:579
-2.0853,-0.0596,13.07,-1.1152,0.7263,9.7193,0.047,0.7716,-3.3886,-0.0538,0.355,0.1368,126.2348,6.47,-18.84,-49.8,189.4,-6.19,4.3,2.0,985.68,51.491,55.753872,48.742012,628.38,NaN,,0.0,151.33017,,0 / 26,49012,2020-04-13 19:15:59:078
-0.8829,1.207,12.914,-0.4261,0.9245,9.757,0.0194,-0.8658,-0.3847,0.0646,-0.1829,0.04,197.2148,3.04,-18.05,-50.02,183.54,-5.41,2.5,2.0,985.66,54.672,55.753872,48.742012,628.38,NaN,,0.0,151.33017,,0 / 26,49513,2020-04-13 19:15:59:579
-0.3009,1.2738,9.3896,-0.4592,1.0863,9.7389,-0.2833,-0.3836,1.9294,-0.0458,0.3625,-0.0249,192.1198,2.56,-18.52,-50.55,188.88,-5.91,0.97,2.0,985.66,46.762,55.753872,48.742012,628.38,NaN,,0.0,151.33017,,0 / 26,50013,2020-04-13 19:16:00:079
-0.6375,2.3638,7.3695,-0.7441,1.1505,9.7138,0.066,-0.9429,2.9671,-0.1367,-0.1996,0.0682,31.3013,7.02,-19.55,-49.99,185.92,-5.74,6.22,2.0,985.66,55.285,55.753872,48.742012,628.38,NaN,,0.0,151.33017,,0 / 26,50514,2020-04-13 19:16:00:580
0.4058,0.8626,6.0448,-0.6335,0.948,9.7435,-0.5251,-0.5481,2.2248,-0.0786,0.0359,-0.1015,22.9922,4.77,-16.97,-50.79,185.7,-3.61,1.91,2.0,985.66,53.642,55.753872,48.742012,628.38,NaN,,0.0,151.33017,,0 / 25,51012,2020-04-13 19:16:01:078
-0.6463,0.5802,6.7026,-1.4239,1.1537,9.6373,-0.9481,0.19,3.5504,0.2909,0.082,0.1374,16.9989,9.4,-16.73,-50.19,188.32,-6.75,8.4,2.0,985.67,52.13,55.753872,48.742012,628.38,NaN,,0.0,151.33017,,0 / 25,51513,2020-04-13 19:16:01:579
0.1762,-0.8829,8.7133,-0.4052,0.42,9.7926,-0.5133,1.5592,0.0463,0.3232,-0.0531,-0.1418,24.9554,3.94,-13.76,-51.46,185.04,-1.66,3.25,2.0,985.66,48.003,55.753872,48.742012,628.38,NaN,,0.0,151.33017,,0 / 26,52013,2020-04-13 19:16:02:079
-1.1896,-0.1225,11.0408,-1.0378,0.9057,9.7128,0.1112,0.8259,-1.3157,-0.3898,0.1108,0.4689,32.4676,6.71,-20.0,-50.86,183.55,-3.8,6.67,2.0,985.68,48.677,55.753872,48.742012,628.38,NaN,,0.0,151.33017,,0 / 26,52514,2020-04-13 19:16:02:580
-0.5166,0.1357,13.3968,-0.1122,0.6764,9.786,0.7073,0.0821,-4.1029,-0.1953,-0.2915,0.0645,87.3359,1.97,-21.89,-51.56,180.61,-4.97,4.29,2.0,985.68,50.034,55.753872,48.742012,628.38,NaN,,0.0,151.33017,,0 / 26,53013,2020-04-13 19:16:03:079
-1.4144,1.4211,10.3503,-1.0058,1.3756,9.6609,0.4087,-0.0455,-0.6895,-0.2846,-0.0748,0.1193,176.7301,6.66,-26.05,-49.2,189.35,-8.03,4.53,2.0,985.69,47.309,55.753872,48.742012,628.38,NaN,,0.0,151.33017,,0 / 26,53516,2020-04-13 19:16:03:582
-0.5341,1.9133,9.4989,-0.9399,1.0574,9.7075,0.3538,-1.1619,0.3742,-0.0537,-0.2845,-0.1698,240.6608,7.15,-25.97,-49.49,187.71,-6.54,4.96,2.0,985.68,50.742,55.753872,48.742012,628.38,NaN,,0.0,151.33017,,0 / 25,54013,2020-04-13 19:16:04:079
-0.3284,1.45,8.5336,-0.4442,1.3261,9.7098,-0.2072,0.2347,2.5719,0.2164,-0.1133,-0.14,207.6048,5.49,-26.22,-49.9,188.13,-7.77,2.62,2.0,985.67,48.155,55.753872,48.742012,628.38,NaN,,0.0,151.33017,,0 / 25,54518,2020-04-13 19:16:04:584
-0.367,2.1911,7.1758,-0.566,1.4532,9.6852,0.7529,-1.6319,2.5284,-0.1752,-0.137,0.2026,185.2874,5.43,-26.8,-48.33,184.84,-8.7,4.0,2.0,985.68,40.761,55.753872,48.742012,628.38,NaN,,0.0,151.33017,,0 / 26,55012,2020-04-13 19:16:05:078
0.6059,-0.5682,10.2086,0.0509,0.8941,9.769,-0.4877,1.4097,-0.3261,0.0091,0.2828,0.0194,221.0089,-0.45,-22.45,-51.83,179.08,-4.63,-1.92,2.0,985.68,47.862,55.753872,48.742012,628.38,NaN,,0.0,151.33017,,0 / 26,55513,2020-04-13 19:16:05:579
-0.6433,0.4449,8.184,-0.4911,1.001,9.7464,0.1234,0.972,1.3969,0.3622,-0.0219,0.1358,499.2978,2.87,-21.23,-50.66,179.87,-5.07,3.41,2.0,985.69,52.618,55.753872,48.742012,628.38,NaN,,0.0,151.33017,,0 / 26,56013,2020-04-13 19:16:06:079
-0.0486,0.546,11.6893,0.0129,0.7272,9.783,0.1344,0.1108,-1.9017,0.0626,-0.1139,-0.2759,499.2978,-0.48,-19.94,-49.97,173.5,-5.45,1.13,2.0,985.67,51.544,55.753872,48.742012,628.38,NaN,,0.0,151.33017,,0 / 26,56513,2020-04-13 19:16:06:579
-0.568,0.9907,10.0807,-0.4248,0.9734,9.7523,0.227,0.6442,-1.7492,0.1092,0.2306,-0.0933,469.7037,2.27,-20.09,-49.16,186.09,-4.64,0.34,2.0,985.68,50.559,55.753872,48.742012,628.38,NaN,,0.0,151.33017,,5 / 25,57013,2020-04-13 19:16:07:079
-0.1015,1.5165,10.8661,-0.0636,1.0955,9.7484,0.1689,-0.547,-0.0974,-0.2964,-0.1331,0.1695,308.069,-0.09,-21.34,-49.9,178.78,-6.41,0.37,2.0,985.71,53.229,55.753872,48.742012,628.38,NaN,,0.0,151.33017,,5 / 25,57518,2020-04-13 19:16:07:584
0.1725,1.0337,7.4125,-0.0239,0.7809,9.7788,-0.1402,-0.3983,2.9446,0.0405,0.143,-0.3862,280.5035,1.59,-18.21,-52.39,191.58,-4.07,-1.02,2.0,985.7,50.941,55.753872,48.742012,628.38,NaN,,0.0,151.33017,,4 / 26,58012,2020-04-13 19:16:08:078
0.2217,-0.6641,10.0384,-0.0316,0.9411,9.7647,-0.0897,0.7141,1.0031,0.1295,-0.0092,-0.1509,303.9306,1.84,-20.13,-52.08,184.74,-5.83,0.87,2.0,985.66,53.376,55.753872,48.742012,628.38,NaN,,0.0,151.33017,,4 / 26,58515,2020-04-13 19:16:08:581
0.5734,-0.2055,8.3402,0.3972,0.6214,9.7822,0.3095,-0.2489,0.2925,0.2843,0.1339,-0.0462,494.6995,-1.13,-18.25,-53.85,184.68,-3.63,-2.33,2.0,985.67,52.175,55.753872,48.742012,628.38,NaN,,0.0,151.33017,,4 / 26,59012,2020-04-13 19:16:09:078
-0.2501,-0.6494,11.8408,-0.3105,0.8123,9.7714,0.5261,0.1948,2.4203,-0.6327,0.2964,0.5116,471.6251,3.9,-19.5,-52.55,189.24,-4.42,1.71,2.0,985.68,50.689,55.753872,48.742012,628.38,NaN,,0.0,151.33017,,4 / 26,59513,2020-04-13 19:16:09:579
0.3073,0.1157,14.2014,0.1152,0.5752,9.7924,-0.3599,0.4798,-2.6777,-0.5883,-0.0384,0.4621,429.7028,-1.99,-19.32,-51.82,175.02,-3.36,-0.67,2.0,985.69,50.147,55.753872,48.742012,628.38,NaN,,0.0,151.33017,,4 / 26,60013,2020-04-13 19:16:10:079
-0.7773,1.1378,10.8523,-0.2721,1.0181,9.7532,0.2114,0.0914,-1.776,0.0265,0.1615,-0.0125,374.8387,1.03,-21.44,-51.2,180.72,-5.52,0.9,2.0,985.67,50.968,55.753872,48.742012,628.38,NaN,,0.0,151.33017,,4 / 26,60513,2020-04-13 19:16:10:579
0.1128,1.4578,9.8732,0.0749,0.881,9.7701,-0.1273,-0.582,-0.4067,0.0218,-0.0757,0.0496,290.5771,-1.32,-20.57,-50.95,176.67,-5.48,-0.08,2.0,985.68,52.066,55.753872,48.742012,628.38,NaN,,0.0,151.33017,,4 / 26,61012,2020-04-13 19:16:11:078
0.3279,1.2815,6.5234,-0.0642,1.1328,9.7442,-0.3805,-0.2452,2.547,-0.0086,0.1025,-0.181,210.2065,-0.37,-21.59,-52.56,176.1,-5.05,-1.05,2.0,985.7,54.748,55.753872,48.742012,628.38,NaN,,0.0,151.33017,,4 / 26,61514,2020-04-13 19:16:11:580
-0.1675,0.3111,7.8764,-0.168,1.0717,9.7498,-0.0549,0.7376,1.8748,0.0844,-0.2542,0.1612,113.3739,1.75,-19.78,-52.21,179.72,-4.03,2.29,2.0,985.7,51.167,55.753872,48.742012,628.38,NaN,,0.0,151.33017,,4 / 26,62013,2020-04-13 19:16:12:079
0.7757,-0.3443,9.0783,0.2268,1.0532,9.7507,-0.2745,1.0576,1.6085,0.268,0.0931,-0.2819,36.6404,-0.65,-20.71,-48.69,177.63,-5.18,-1.59,2.0,985.68,48.855,55.753872,48.742012,628.38,NaN,,0.0,151.33017,,4 / 26,62514,2020-04-13 19:16:12:580
-0.4834,-0.8417,12.6171,-0.7276,0.6871,9.7588,0.5093,-0.2298,-2.4097,-0.0426,0.2543,0.3016,23.1281,4.95,-18.92,-52.22,184.19,-4.02,4.26,2.0,985.67,50.26,55.753872,48.742012,628.38,NaN,,0.0,151.33017,,4 / 26,63012,2020-04-13 19:16:13:078
-0.4122,1.7834,11.2166,0.0926,0.8815,9.7699,0.3161,5.0E-4,-3.6575,-0.3527,-0.1624,-0.0431,12.9579,0.01,-19.3,-49.94,181.88,-5.16,-0.54,2.0,985.68,48.571,55.753872,48.742012,628.38,NaN,,0.0,151.33017,,4 / 26,63513,2020-04-13 19:16:13:579
-0.3355,0.9468,9.8966,-0.2844,0.3762,9.7987,-0.0502,-0.5691,-0.1015,0.0015,0.262,0.048,9.0992,3.9,-17.59,-50.55,194.66,-2.97,-0.01,2.0,985.67,49.783,55.753834,48.742,617.67,NaN,,0.0,96.56749,,4 / 26,64012,2020-04-13 19:16:14:078
-0.6909,1.7307,6.8689,-0.1477,0.9115,9.7664,0.1297,-0.571,2.0499,0.1282,-0.1633,0.3225,9.0992,0.93,-22.54,-49.17,178.14,-6.42,1.83,2.0,985.66,49.604,55.753834,48.742,617.67,NaN,,0.0,96.56749,,4 / 26,64514,2020-04-13 19:16:14:580
0.4197,1.0566,7.6211,-0.0145,0.6757,9.7867,-0.2125,0.7496,0.5292,0.0738,0.122,-0.2065,10.8143,0.03,-20.28,-50.85,179.74,-3.95,0.09,2.0,985.69,49.469,55.753834,48.742,617.67,NaN,,0.0,96.56749,,4 / 26,65013,2020-04-13 19:16:15:079
-0.9851,-0.0521,10.1283,-0.5158,0.9012,9.7549,0.2456,0.3477,1.5849,0.0048,-0.0455,0.1627,15.2629,1.14,-21.12,-51.14,174.74,-2.99,3.02,2.0,985.69,54.468,55.753834,48.742,617.67,NaN,,0.0,96.56749,,4 / 26,65514,2020-04-13 19:16:15:580
0.548,-0.2239,11.6232,0.2768,0.6783,9.7826,0.8862,-0.1197,-1.6324,-0.0416,-0.1758,-0.2106,19.8955,-2.12,-20.57,-52.21,178.26,-3.97,-1.62,2.0,985.69,60.76,55.753834,48.742,617.67,NaN,,0.0,96.56749,,4 / 26,66012,2020-04-13 19:16:16:078
-1.3937,0.8945,9.6268,-0.2015,1.2282,9.7307,1.9311,0.7199,-2.5521,-0.1952,0.242,0.3115,23.6646,5.06,-23.73,-51.55,192.78,-7.19,1.19,2.0,985.7,55.141,55.753834,48.742,617.67,NaN,,0.0,96.56749,,4 / 26,66513,2020-04-13 19:16:16:579
-0.6919,1.6308,8.8036,-0.3525,1.0532,9.7469,1.1182,-0.3986,0.9287,-0.0877,-0.255,0.1738,20.6469,6.48,-23.91,-50.88,188.69,-5.96,3.54,2.0,985.69,53.651,55.753834,48.742,617.67,NaN,,0.0,96.56749,,3 / 26,67012,2020-04-13 19:16:17:078
0.2562,1.3913,8.4112,-0.3688,1.2377,9.7246,-0.4086,-0.4883,2.1982,0.4995,0.2262,0.0569,16.0339,3.1,-22.01,-51.24,187.25,-4.72,0.84,2.0,985.69,59.074,55.753834,48.742,617.67,NaN,,0.0,96.56749,,3 / 26,67513,2020-04-13 19:16:17:579
0.7566,1.2524,7.4414,-0.1594,1.0482,9.7525,-0.916,-0.2043,2.3111,0.0193,-0.1656,0.1426,20.9696,-0.29,-22.72,-50.9,177.26,-6.13,0.94,2.0,985.67,57.995,55.753834,48.742,617.67,NaN,,0.0,96.56749,,3 / 26,68013,2020-04-13 19:16:18:079
1.3374,-0.6307,10.5116,0.4464,1.2423,9.7208,-1.5496,0.8835,0.548,-0.1671,0.2206,-0.0896,27.0318,-1.66,-22.23,-50.12,181.09,-7.28,-2.63,2.0,985.68,57.584,55.753834,48.742,617.67,NaN,,0.0,96.56749,,3 / 26,68514,2020-04-13 19:16:18:580
0.2315,-1.2091,14.7978,-0.2231,0.9619,9.7602,0.2762,1.2675,-4.2854,0.6091,0.0203,-0.2565,55.1643,1.75,-23.14,-52.73,187.97,-7.07,-0.31,2.0,985.68,59.089,55.753834,48.742,617.67,NaN,,0.0,96.56749,,4 / 26,69013,2020-04-13 19:16:19:079
-0.8069,1.1908,12.2336,0.1453,0.8231,9.7743,1.3729,-1.1941,-0.6474,0.1393,-0.1599,-0.3043,116.027,2.5,-22.57,-52.31,189.06,-6.78,0.37,2.0,985.7,53.881,55.753834,48.742,617.67,NaN,,0.0,96.56749,,4 / 26,69513,2020-04-13 19:16:19:579
-0.4416,1.7215,8.5245,-0.6108,1.6428,9.6522,-0.5719,-0.4084,1.4906,0.2879,0.1085,-0.1088,150.7681,6.77,-23.41,-50.87,195.99,-7.77,2.75,2.0,985.68,56.61,55.753834,48.742,617.67,NaN,,0.0,96.56749,,4 / 26,70013,2020-04-13 19:16:20:079
0.434,1.2383,6.0646,-0.3949,1.3928,9.7026,0.1772,-0.3605,3.2601,0.0306,-0.0217,0.1532,176.6922,3.63,-22.54,-51.27,185.41,-7.35,2.76,2.0,985.71,59.832,55.753834,48.742,617.67,NaN,,0.0,96.56749,,4 / 26,70514,2020-04-13 19:16:20:580
0.2852,1.1378,7.4603,0.0891,1.0664,9.7515,-0.3398,0.3186,1.6102,0.235,0.1548,-0.1852,109.8231,-1.33,-20.2,-50.49,182.19,-4.32,-1.85,2.0,985.67,58.159,55.753834,48.742,617.67,NaN,,0.0,96.56749,,5 / 26,71013,2020-04-13 19:16:21:079
0.2567,0.5496,9.3291,0.0509,0.5752,9.793,-0.0053,-0.2776,0.9743,-0.0031,-0.0462,-0.0895,43.669,-0.81,-19.61,-51.85,177.53,-3.36,-0.3,2.0,985.7,56.748,55.753834,48.742,617.67,NaN,,0.0,96.56749,,5 / 26,71513,2020-04-13 19:16:21:579
1.0983,0.3773,8.2552,-0.0652,0.9271,9.7659,-1.2931,1.0232,0.7538,0.256,0.1991,-0.3305,50.6606,-3.0,-18.95,-49.86,180.06,-4.26,-3.45,2.0,985.68,54.609,55.753834,48.742,617.67,NaN,,0.0,96.56749,,5 / 26,72012,2020-04-13 19:16:22:078
-2.0115,0.4918,12.8538,-0.3522,0.7779,9.7728,0.4002,0.6024,-0.5191,-0.0483,-0.55,-0.0772,60.0944,0.51,-20.89,-49.33,188.35,-4.55,2.06,2.0,985.69,54.604,55.753834,48.742,617.67,NaN,,0.0,96.56749,,5 / 26,72513,2020-04-13 19:16:22:579
0.1716,1.5433,11.3021,0.6604,0.848,9.7509,-0.3175,0.6308,-2.8695,-0.3011,-0.0578,0.117,53.0866,-0.05,-19.71,-49.81,189.83,-5.71,-2.96,2.0,985.69,53.46,55.753834,48.742,617.67,NaN,,0.0,96.56749,,5 / 25,73013,2020-04-13 19:16:23:079
-2.628,-0.2917,14.3201,-0.7166,1.0547,9.7268,-0.133,-0.0642,-2.0158,-0.5525,0.1537,0.2182,53.0866,5.87,-19.26,-48.5,190.17,-6.17,4.21,2.0,985.69,53.772,55.753834,48.742,617.67,NaN,,0.0,96.56749,,5 / 25,73513,2020-04-13 19:16:23:579
-0.5132,1.334,12.4324,-0.1777,1.1851,9.7365,-0.2773,-0.3162,0.0386,-0.2035,-0.0744,-0.2289,61.6952,4.97,-19.15,-49.66,192.25,-6.34,2.41,2.0,985.69,50.315,55.753834,48.742,617.67,NaN,,0.0,96.56749,,5 / 26,74013,2020-04-13 19:16:24:079
-0.2045,0.8889,10.2848,-0.3063,0.6642,9.7827,0.016,-0.7495,1.0158,0.1362,0.3137,0.017,66.5225,5.41,-18.24,-50.51,193.2,-3.88,1.79,2.0,985.68,48.079,55.753834,48.742,617.67,NaN,,0.0,96.56749,,5 / 26,74514,2020-04-13 19:16:24:580
-0.5744,0.7549,8.2742,-0.342,0.5322,9.7896,0.7037,-0.6086,-0.503,-0.0328,-0.2139,0.0348,29.2381,4.44,-16.77,-51.09,188.87,-3.11,2.0,2.0,985.68,50.022,55.753834,48.742,617.67,NaN,,0.0,96.56749,,3 / 26,75012,2020-04-13 19:16:25:078
-0.0394,0.2236,8.9416,-0.34,0.4024,9.7958,0.1368,-0.9398,2.8081,-0.5585,0.1458,-0.2228,18.1335,4.24,-15.67,-51.36,189.12,-2.35,1.99,2.0,985.68,51.729,55.753834,48.742,617.67,NaN,,0.0,96.56749,,3 / 26,75513,2020-04-13 19:16:25:579
-1.7644,0.8924,8.1753,-0.5313,0.7847,9.7641,0.4158,-0.0073,1.9294,-0.0507,-0.6958,0.4818,59.3415,8.26,-17.9,-50.65,192.46,-3.03,5.17,2.0,985.69,56.157,55.753834,48.742,617.67,NaN,,0.0,96.56749,,4 / 26,76012,2020-04-13 19:16:26:078
0.4635,-0.2297,9.225,-0.4019,0.7297,9.7746,-1.6922,0.7968,1.6093,0.1541,0.0436,-0.2185,95.0774,4.12,-19.12,-50.82,187.71,-3.95,2.14,2.0,985.69,54.69,55.753834,48.742,617.67,NaN,,0.0,96.56749,,4 / 26,76515,2020-04-13 19:16:26:581
-0.6385,-0.124,9.2011,-0.5376,0.2078,9.7931,0.7546,1.1302,-2.7481,-0.1824,0.0731,0.1893,218.6397,5.53,-16.49,-52.47,191.91,-1.21,3.14,2.0,985.7,53.952,55.753834,48.742,617.67,NaN,,0.0,96.56749,,0 / 26,77013,2020-04-13 19:16:27:079
-1.3805,0.692,12.8966,-0.0584,0.5167,9.7962,1.3221,-0.1753,-3.1004,0.1637,0.0172,-0.1528,218.6397,3.16,-17.97,-51.96,188.66,-2.1,0.61,2.0,985.69,50.109,55.753834,48.742,617.67,NaN,,0.0,96.56749,,0 / 26,77514,2020-04-13 19:16:27:580
-1.115,0.1082,11.875,-0.8147,0.6006,9.7576,0.1505,-0.4726,-0.3235,0.1149,0.026,0.1888,172.9311,6.24,-19.31,-51.9,189.3,-3.55,3.76,2.0,985.68,50.313,55.753834,48.742,617.67,NaN,,0.0,96.56749,,0 / 26,78012,2020-04-13 19:16:28:078
-1.2563,0.8645,9.4287,-0.149,0.2661,9.8053,1.0342,-0.804,1.9173,-0.1632,-0.3144,0.069,108.4565,2.51,-17.25,-50.64,188.11,-1.55,0.87,2.0,985.67,50.988,55.753834,48.742,617.67,NaN,,0.0,96.56749,,0 / 26,78513,2020-04-13 19:16:28:579
0.7289,0.1475,7.1815,0.2085,0.4843,9.7958,-0.364,-0.1409,0.8507,-0.6289,-0.3958,-0.3281,33.6245,3.33,-19.87,-51.88,188.06,-0.85,0.3,2.0,985.66,48.005,55.753834,48.742,617.67,NaN,,0.0,96.56749,,0 / 26,79013,2020-04-13 19:16:29:079
-1.8855,0.606,8.9841,-0.6072,0.15,9.79,-0.403,0.5061,0.442,-0.3203,0.0702,0.3632,18.7533,8.21,-20.11,-50.87,193.83,-4.12,4.47,2.0,985.69,56.507,55.753834,48.742,617.67,NaN,,0.0,96.56749,,0 / 26,79513,2020-04-13 19:16:29:579
0.9946,0.3142,8.8849,0.2404,0.5413,9.7921,-0.1934,0.3136,-2.1923,0.0958,-0.1469,-0.2528,20.9247,1.62,-18.63,-50.6,191.37,-3.16,-1.41,2.0,985.69,54.695,55.753834,48.742,617.67,NaN,,0.0,96.56749,,0 / 26,80013,2020-04-13 19:16:30:079
-1.2793,1.0983,11.3733,-0.7381,0.8429,9.7458,-0.4319,0.2294,-1.7848,-0.1141,0.2737,0.2078,29.5218,7.19,-19.67,-47.58,192.01,-4.93,4.33,2.0,985.69,49.366,55.753834,48.742,617.67,NaN,,0.0,96.56749,,0 / 26,80514,2020-04-13 19:16:30:580
-0.025,1.0984,11.4253,0.1595,0.6456,9.7874,0.3667,-0.6368,-0.8673,-0.0956,-0.1513,-0.1723,86.9216,3.16,-19.57,-49.18,190.05,-4.61,0.19,2.0,985.67,46.384,55.753834,48.742,617.67,NaN,,0.0,96.56749,,6 / 25,81013,2020-04-13 19:16:31:079
0.0037,1.2898,9.5849,-0.2672,0.702,9.7812,-0.2955,-0.4739,0.2058,-0.0142,0.153,-0.1671,168.7154,7.87,-19.49,-51.9,203.38,-4.1,1.56,2.0,985.69,55.734,55.753834,48.742,617.67,NaN,,0.0,96.56749,,6 / 25,81513,2020-04-13 19:16:31:579
-0.909,1.232,9.4337,-0.45,1.0708,9.741,0.4979,-0.4402,1.0571,0.0493,-0.0802,0.0515,216.0461,7.16,-21.33,-47.78,197.02,-6.27,2.65,2.0,985.68,55.647,55.753834,48.742,617.67,NaN,,0.0,96.56749,,6 / 26,82013,2020-04-13 19:16:32:079
0.8891,0.1372,8.3267,-0.0738,1.5103,9.6928,-0.9448,1.5787,0.7552,-0.1056,-0.0393,-0.2351,196.2642,6.74,-22.83,-47.03,202.64,-7.59,0.1,2.0,985.67,53.399,55.753834,48.742,617.67,NaN,,0.0,96.56749,,6 / 26,82513,2020-04-13 19:16:32:579
-0.7045,0.2387,8.8277,-0.885,1.1728,9.6994,0.5769,1.11,-1.5245,0.2792,0.6769,0.1651,176.7211,10.3,-23.48,-46.76,198.37,-6.87,5.21,2.0,985.7,56.032,55.753834,48.742,617.67,NaN,,0.0,96.56749,,6 / 26,83012,2020-04-13 19:16:33:078
-1.2099,0.0908,10.4455,-0.8371,0.854,9.7368,0.0738,0.8455,-0.6441,0.0199,0.1769,-0.3407,134.386,8.39,-22.7,-46.26,192.06,-4.99,4.91,2.0,985.68,55.988,55.753834,48.742,617.67,NaN,,0.0,96.56749,,6 / 26,83513,2020-04-13 19:16:33:579